Folder: dataverse-utility

Note: README.md
# Dataverse Utility

Tool for automating data repositories on Dataverse.

To develop and adapt to the specific needs of experimental platforms.

Copyright (C) Universit√© de Lorraine

Developed by Pr. Sidi HAMADY <sidi.hamady@univ-lorraine.fr>

Released under the MIT licence (https://opensource.org/licenses/MIT)

See Copyright Notice in COPYRIGHT


## Install

cd to the current directory and type:

**sudo python setup.py install**


## Use

After installing, create a python script, import DataverseCore and show the interface:

**from DataverseCore import***

**DataverseCore().show()**

Note: README.rst
What is it?
===========

Dataverse Utility.
Tool for automating data repositories on Dataverse.
To develop and adapt to the specific needs of experimental platforms.
Copyright (C) Universit√© de Lorraine
Developed by Pr. Sidi HAMADY <sidi.hamady@univ-lorraine.fr>
Released under the MIT licence (https://opensource.org/licenses/MIT)


How to install it?
================

`sudo python setup.py install`


How to use it?
=================

```python

from DataverseCore import *

DataverseCore().show()
```

Dependencies
============

 - [requests](requests)
 - [tkinter](tkinter)

Note: zinc_oxide.json
{
    "datasetVersion":
    {
        "termsOfUse": "CC0 Waiver",
        "license": "CC0",
        "protocol":"doi",
        "authority":"10.502",
        "identifier":"CC1/21D1",
        "metadataBlocks":
        {
            "citation":
            {
                "fields":
                [
                    {
                        "typeName": "title",
                        "multiple": false,
                        "value": "van der Pauw and Hall effect characterization of semiconductor oxides",
                        "typeClass": "primitive"
                    },
                    {
                        "typeName": "language",
                        "multiple": true,
                        "value":
                        [
                           "English"
                        ],
                        "typeClass": "controlledVocabulary"
                    },
                    {
                        "typeName": "producer",
                        "multiple": true,
                        "value":
                        [
                           {
                                "producerName":
                                {
                                    "typeName": "producerName",
                                    "multiple": false,
                                    "value": "Universit√© de Lorraine",
                                    "typeClass": "primitive"
                                }
                            }
                        ],
                        "typeClass": "compound"
                    },
                    {
                        "typeName": "dsDescription",
                        "multiple": true,
                        "value":
                        [
                            {
                                "dsDescriptionValue":
                                {
                                    "typeName": "dsDescriptionValue",
                                    "multiple": false,
                                    "value": "<class 'str'>",
                                    "typeClass": "primitive"
                                },
                                "dsDescriptionDate":
                                {
                                    "typeName": "dsDescriptionDate",
                                    "multiple": false,
                                    "value": "2021-05-22",
                                    "typeClass": "primitive"
                                }
                            }
                        ],
                        "typeClass": "compound"
                    },
                    {
                        "typeName": "author",
                        "multiple": true,
                        "value":
                        [
                            {
                                "authorAffiliation":
                                {
                                    "typeNa

File: zinc_oxide.txt
#
# zinc_oxide.txt
# Carel Platform, LMOPS, Université de Lorraine et CentraleSupélec
# Date:                         2021-01-12 11:30
# User:                         Sidi
# Experiment:                   van der Pauw / Hall
# Comment:                      n-type zinc oxide (on sapphire), thickness: 0.2 um, contacts: soldered indium, room temperature
#
# Columns (delimiter = TAB):    Current (A)	VoltageDC (V)	VoltageAB (V)	VoltageAD (V)	VoltageBC (V)	VoltageMAC (V)	VoltageMACN (V)	VoltageMDB (V)	VoltageMDBN (V)	Resistivity (Ohms.cm)	NB (cm^-3)	Mobility (cm2/Vs)
#
-4.800000e-004	-0.417496	-0.417845	-0.499864	-0.499821	0.07658810	0.08640130	0.08702330	0.07761140	8.641025e-002	1.686295e+018	4.283894e+001
-4.600000e-004	-0.400088	-0.400317	-0.479071	-0.479112	0.07369920	0.08291690	0.08315420	0.07443580	8.641316e-002	1.697266e+018	4.256061e+001
-4.400000e-004	-0.382661	-0.38313	-0.458245	-0.45826	0.07047250	0.07925120	0.07983170	0.07095450	8.642575e-002	1.723031e+018	4.191806e+001
-4.200000e-004	-0.36527	-0.365423	-0.437632	-0.437133	0.06738600	0.07594150	0.07615910	0.06746460	8.641043e-002	1.705513e+018	4.235612e+001
-4.000000e-004	-0.347926	-0.348038	-0.416952	-0.416349	0.06387830	0.07238030	0.07266000	0.06422860	8.640173e-002	1.664334e+018	4.340849e+001
-3.800000e-004	-0.330652	-0.33057	-0.395739	-0.395882	0.06107880	0.06854330	0.06879720	0.06159800	8.642955e-002	1.712644e+018	4.217045e+001
-3.600000e-004	-0.313274	-0.313135	-0.375039	-0.374757	0.05765300	0.06495320	0.06544270	0.05833270	8.642094e-002	1.716682e+018	4.207544e+001
-3.400000e-004	-0.295646	-0.29588	-0.354111	-0.354051	0.05465280	0.06158410	0.06191920	0.05470940	8.641956e-002	1.719569e+018	4.200546e+001
-3.200000e-004	-0.278242	-0.27838	-0.333305	-0.333176	0.05127550	0.05804930	0.05837150	0.05150750	8.640534e-002	1.668371e+018	4.330162e+001
-3.000000e-004	-0.26116	-0.260903	-0.31245	-0.31237	0.04815550	0.05430580	0.05435420	0.04838450	8.640905e-002	1.694073e+018	4.264284e+001
-2.800000e-004	-0.243838	-0.24368	-0.291672	-0.291485	0.04524720	0.05096780	0.05077090	0.04541380	8.640833e-002	1.682842e+018	4.292779e+001
-2.600000e-004	-0.226444	-0.226137	-0.270744	-0.270822	0.04201900	0.04735950	0.04735280	0.04203070	8.642822e-002	1.691869e+018	4.268893e+001
-2.400000e-004	-0.209053	-0.20875	-0.250208	-0.249805	0.03876280	0.04345250	0.04388850	0.03905120	8.641369e-002	1.716032e+018	4.209490e+001
-2.200000e-004	-0.191201	-0.191298	-0.229053	-0.228966	0.03566230	0.04011890	0.04030310	0.03581570	8.639136e-002	1.690677e+018	4.273724e+001
-2.000000e-004	-0.173955	-0.173849	-0.208305	-0.208602	0.03209590	0.03651950	0.03607920	0.03205190	8.641256e-002	1.648936e+018	4.380834e+001
-1.800000e-004	-0.156793	-0.156475	-0.187381	-0.18771	0.02888180	0.03284870	0.03247090	0.02876940	8.642070e-002	1.629247e+018	4.433357e+001
-1.600000e-004	-0.139397	-0.139447	-0.166615	-0.166547	0.02592070	0.02926400	0.02882800	0.02572080	8.640782e-002	1.625957e+018	4.442990e+001
-1.400000e-004	-0.121998	-0.121945	-0.145888	-0.145626	0.02280890	0.02543040	0.02539560	0.02290970	8.641549e-002	1.743694e+018	4.142626e+001
-1.200000e-004	-0.104629	-0.104643	-0.125285	-0.125126	0.01943830	0.02168030	0.02213530	0.01926580	8.646421e-002	1.765259e+018	4.089711e+001
-1.000000e-004	-0.08724170	-0.08690120	-0.104475	-0.104437	0.01602170	0.01803130	0.01843430	0.01623520	8.642538e-002	1.703086e+018	4.240915e+001
-8.000000e-005	-0.06976080	-0.06980000	-0.08352950	-0.08316480	0.01275370	0.01466190	0.01456710	0.01262830	8.637402e-002	1.574753e+018	4.589251e+001
-6.000000e-005	-0.05226340	-0.05244970	-0.06277720	-0.06262390	0.00955620	0.01101510	0.01075640	0.00939500	8.639539e-002	1.563244e+018	4.621897e+001
6.000000e-005	0.05196240	0.05198660	0.06244740	0.06227640	-0.00972160	-0.01075070	-0.01125260	-0.00983110	8.639539e-002	1.563244e+018	4.621897e+001
8.000000e-005	0.06937030	0.06936560	0.08314300	0.08341070	-0.01303870	-0.01438990	-0.01482520	-0.01304690	8.637402e-002	1.574753e+018	4.589251e+001
1.000000e-004	0.08677410	0.08694610	0.104124	0.104015	-0.01634750	-0.01833950	-0.01823270	-0.01636990	8.642538e-002	1.703086e+018	4.240915e+001
1.200000e-004	0.104509	0.104303	0.124985	0.124768	-0.01953870	-0.02185880	-0.02162640	-0.01972260	8.646421e-002	1.765259e+018	4.089711e+001
1.400000e-004	0.121884	0.121562	0.145731	0.146065	-0.02252980	-0.02563060	-0.02528110	-0.02246330	8.641549e-002	1.743694e+018	4.142626e+001
1.600000e-004	0.138961	0.138984	0.166676	0.166944	-0.02567100	-0.02904010	-0.02943950	-0.02574550	8.640782e-002	1.625957e+018	4.442990e+001
1.800000e-004	0.15637	0.156622	0.187812	0.187589	-0.02912970	-0.03271090	-0.03306500	-0.02914250	8.642070e-002	1.629247e+018	4.433357e+001
2.000000e-004	0.173859	0.174217	0.208676	0.208104	-0.03215460	-0.03625100	-0.03648190	-0.03237260	8.641256e-002	1.648936e+018	4.380834e+001
2.200000e-004	0.191492	0.191619	0.229215	0.229223	-0.03541540	-0.03984380	-0.03984680	-0.03534930	8.639136e-002	1.690677e+018	4.273724e+001
2.400000e-004	0.208879	0.208756	0.249879	0.250125	-0.03872540	-0.04371820	-0.04338200	-0.03869540	8.641369e-002	1.716032e+018	4.209490e+001
2.600000e-004	0.226348	0.226167	0.271031	0.271066	-0.04186560	-0.04707960	-0.04703760	-0.04181010	8.642822e-002	1.691869e+018	4.268893e+001
2.800000e-004	0.24343	0.243513	0.291731	0.291903	-0.04491570	-0.05085890	-0.05079720	-0.04496870	8.640833e-002	1.682842e+018	4.292779e+001
3.000000e-004	0.260809	0.261169	0.312629	0.312732	-0.04823610	-0.05432780	-0.05488320	-0.04877570	8.640905e-002	1.694073e+018	4.264284e+001
3.200000e-004	0.278511	0.278465	0.333446	0.33354	-0.05159400	-0.05777740	-0.05831590	-0.05179700	8.640534e-002	1.668371e+018	4.330162e+001
3.400000e-004	0.295911	0.296124	0.354346	0.354343	-0.05476820	-0.06135370	-0.06152200	-0.05509550	8.641956e-002	1.719569e+018	4.200546e+001
3.600000e-004	0.313475	0.313494	0.375051	0.375173	-0.05792100	-0.06521690	-0.06512210	-0.05802950	8.642094e-002	1.716682e+018	4.207544e+001
3.800000e-004	0.330896	0.330935	0.396173	0.395819	-0.06073490	-0.06872160	-0.06891840	-0.06109850	8.642955e-002	1.712644e+018	4.217045e+001
4.000000e-004	0.347871	0.348399	0.416563	0.416566	-0.06417350	-0.07206730	-0.07274540	-0.06456760	8.640173e-002	1.664334e+018	4.340849e+001
4.200000e-004	0.365689	0.365753	0.437464	0.437538	-0.06717810	-0.07573300	-0.07598960	-0.06797600	8.641043e-002	1.705513e+018	4.235612e+001
4.400000e-004	0.383106	0.383135	0.458611	0.458298	-0.07049500	-0.07951610	-0.07955260	-0.07116090	8.642575e-002	1.723031e+018	4.191806e+001
4.600000e-004	0.400171	0.40069	0.479508	0.478974	-0.07333690	-0.08319370	-0.08350390	-0.07407750	8.641316e-002	1.697266e+018	4.256061e+001
4.800000e-004	0.417504	0.418112	0.500243	0.499859	-0.07671200	-0.08664200	-0.08737440	-0.07743930	8.641025e-002	1.686295e+018	4.283894e+001